Folder: mySofaDevs/StrandModels/Tension6Plus1/BeamModel/Tensile

Note: StrandModels/Tension6Plus1/BeamModel/Tensile/CentralBeamReactionForce_f.txt
# Gnuplot File : forces of 1 particle(s) Monitored
# 1st Column : time, others : particle(s) number 0 
0.005	0 0 0 0 0 0	
0.01	0 0 0 0 0 0	
0.015	0 0 0 0 0 0	
0.02	-2141.98 0 4.75616e-13 0 -0.317504 0	
0.025	1368.28 0 -3.0382e-13 0 0.20282 0	
0.03	1843 0 -4.09229e-13 0 0.273187 0	
0.035	1079.85 0 -2.39775e-13 0 0.160065 0	
0.04	-503.184 0 1.11729e-13 0 -0.0745865 0	
0.045	-549.497 0 1.22013e-13 0 -0.0814514 0	
0.05	45.5326 0 -1.01103e-14 0 0.00674925 0	
0.055	26.9327 0 -5.98025e-15 0 0.0039922 0

Note: StrandModels/Tension6Plus1/BeamModel/Tensile/HellicalBeam1ReactionForce_f.txt
# Gnuplot File : forces of 1 particle(s) Monitored
# 1st Column : time, others : particle(s) number 0 
0.005	0 0 0 0 0 0	
0.01	0 0 0 0 0 0	
0.015	0 0 0 0 0 0	
0.02	13.4213 -8.65508 12.7617 0.00199856 0.00322893 8.80338e-05	
0.025	938.819 -2804 2570.08 0.559747 0.388796 0.219715	
0.03	428.871 -2626.86 4328.32 0.632094 0.483995 0.231106	
0.035	1726.74 -7474.35 9824.36 1.65882 1.21022 0.629178	
0.04	522.463 -7274.79 13776.5 1.85088 1.41561 0.67733	
0.045	706.629 -9627.9 19536.4 2.52268 2.00239 0.895569	
0.05	2032.31 -10252.5 26584.3 3.01051 2.88348 0.88189	
0.055	3058.66 -10674.6 32932.9 3.4291 3.65226 0.865332

Note: StrandModels/Tension6Plus1/BeamModel/Tensile/HellicalBeam2ReactionForce_f.txt
# Gnuplot File : forces of 1 particle(s) Monitored
# 1st Column : time, others : particle(s) number 0 
0.005	0 0 0 0 0 0	
0.01	0 0 0 0 0 0	
0.015	0 0 0 0 0 0	
0.02	13.4213 8.65508 12.7617 -0.00199856 0.00322893 -8.80338e-05	
0.025	938.819 2804 2570.08 -0.559747 0.388796 -0.219715	
0.03	428.871 2626.86 4328.32 -0.632094 0.483995 -0.231106	
0.035	1726.74 7474.35 9824.36 -1.65882 1.21022 -0.629178	
0.04	522.463 7274.79 13776.5 -1.85088 1.41561 -0.67733	
0.045	706.629 9627.9 19536.4 -2.52268 2.00239 -0.895569	
0.05	2032.31 10252.5 26584.3 -3.01051 2.88348 -0.88189	
0.055	3058.66 10674.6 32932.9 -3.4291 3.65226 -0.865332

Note: StrandModels/Tension6Plus1/BeamModel/Tensile/HellicalBeam3ReactionForce_f.txt
# Gnuplot File : forces of 1 particle(s) Monitored
# 1st Column : time, others : particle(s) number 0 
0.005	0 0 0 0 0 0	
0.01	0 0 0 0 0 0	
0.015	0 0 0 0 0 0	
0.02	-3.60866e-07 16.8235 13.4048 -0.00399712 -5.34885e-11 -4.0475e-11	
0.025	-0.00170307 4456.12 4092.31 -1.1195 -2.52433e-07 -1.91017e-07	
0.03	-0.00772501 4257.37 5645.04 -1.26419 -1.14502e-06 -8.66442e-07	
0.035	-0.0218107 11974.7 13754.6 -3.31765 -3.23284e-06 -2.4463e-06	
0.04	-0.034075 11732.3 17499.8 -3.70178 -5.05068e-06 -3.82187e-06	
0.045	-0.0700054 15592.9 24377.2 -5.04539 -1.03764e-05 -7.85185e-06	
0.05	-0.0989598 17368.8 30729.1 -6.02104 -1.46681e-05 -1.10994e-05	
0.055	-0.160915 18674.5 36467.9 -6.85825 -2.38513e-05 -1.80484e-05

Note: StrandModels/Tension6Plus1/BeamModel/Tensile/HellicalBeam4ReactionForce_f.txt
# Gnuplot File : forces of 1 particle(s) Monitored
# 1st Column : time, others : particle(s) number 0 
0.005	0 0 0 0 0 0	
0.01	0 0 0 0 0 0	
0.015	0 0 0 0 0 0	
0.02	-13.4213 8.65508 12.7617 -0.00199856 -0.00322893 8.80338e-05	
0.025	-938.823 2804 2570.08 -0.559748 -0.388797 0.219714	
0.03	-428.894 2626.87 4328.34 -0.632096 -0.484 0.231106	
0.035	-1726.81 7474.38 9824.41 -1.65883 -1.21024 0.629176	
0.04	-522.573 7274.85 13776.6 -1.85089 -1.41564 0.677329	
0.045	-706.908 9628 19536.6 -2.52271 -2.00245 0.895562	
0.05	-2032.59 10252.6 26584.6 -3.01054 -2.88354 0.881886	
0.055	-3059.08 10674.8 32933.2 -3.42915 -3.65236 0.865327

Note: StrandModels/Tension6Plus1/BeamModel/Tensile/HellicalBeam5ReactionForce_f.txt
# Gnuplot File : forces of 1 particle(s) Monitored
# 1st Column : time, others : particle(s) number 0 
0.005	0 0 0 0 0 0	
0.01	0 0 0 0 0 0	
0.015	0 0 0 0 0 0	
0.02	-13.4213 -8.65508 12.7617 0.00199856 -0.00322893 -8.80338e-05	
0.025	-938.823 -2804 2570.08 0.559748 -0.388797 -0.219714	
0.03	-428.894 -2626.87 4328.34 0.632096 -0.484 -0.231106	
0.035	-1726.81 -7474.38 9824.41 1.65883 -1.21024 -0.629176	
0.04	-522.573 -7274.85 13776.6 1.85089 -1.41564 -0.677329	
0.045	-706.908 -9628 19536.6 2.52271 -2.00245 -0.895562	
0.05	-2032.59 -10252.6 26584.6 3.01054 -2.88354 -0.881886	
0.055	-3059.08 -10674.8 32933.2 3.42915 -3.65236 -0.865327

Note: StrandModels/Tension6Plus1/BeamModel/Tensile/ReactionForces.txt
0.000000000000000000e+00 0.000000000000000000e+00 0.000000000000000000e+00 0.000000000000000000e+00 0.000000000000000000e+00 0.000000000000000000e+00
0.000000000000000000e+00 0.000000000000000000e+00 0.000000000000000000e+00 0.000000000000000000e+00 0.000000000000000000e+00 0.000000000000000000e+00
3.955017113542903928e+01 -3.017409462321920088e+01 3.131571936588579774e+03 -7.003326623243126825e-01 4.741057809631889164e+00 8.779441913683810883e-02
8.179532374952790974e+01 -6.177742459759792837e+01 6.340160496957410942e+03 -1.335248711775143260e+00 9.698302415153698064e+00 1.826899575239630535e-01
-7.229565359579369215e+02 -1.088073810689670609e+03 1.527584911431351065e+04 1.910184382462209385e+01 1.494227375886230114e+01 4.322566304239397361e+00
-2.479521810085963807e+03 -1.791892360720627721e+03 2.650749561920978158e+04 3.205195234614093636e+01 1.231782463765156166e+01 7.587915260326224320e+00
-4.629115314912661233e+03 -2.558112647063765507e+03 3.949642246065697691e+04 4.602015812338131440e+01 9.021107293864359278e+00 1.113596013337043722e+01
-7.047600143079639565e+03 -2.809297523994878247e+03 5.257439858575772087e+04 5.396191115244783276e+01 3.581239302245012190e+00 1.348996552170827634e+01
-9.507129641525918487e+03 -3.096923280857288773e+03 6.625863174432193046e+04 6.376977916663265944e+01 -7.522572210909509449e-01 1.637584162618044203e+01
-1.169674743124874112e+04 -3.053147730005073754e+03 7.704967937207357318e+04 5.841598991336444158e+01 -1.233091657477272562e+01 1.738939434862783529e+01
-1.253638615866001965e+04 -2.600067883245887970e+03 8.048869276662624907e+04 7.986742754306331449e+01 1.697351945042139931e+01 2.027208834986970487e+01

File: CentralBeamDisplacementEnd_x.txt
# Gnuplot File : positions of 1 particle(s) Monitored
# 1st Column : time, others : particle(s) number 24
0.1	0 0 0.133689 0 -0.707107 0 0.707107
0.2	0 0 0.133822 0 -0.707107 0 0.707107
0.3	0 0 0.133956 0 -0.707107 0 0.707107
0.4	0 0 0.13409 0 -0.707107 0 0.707107
0.5	0 0 0.134223 0 -0.707107 0 0.707107
0.6	0 0 0.134357 0 -0.707107 0 0.707107
0.7	0 0 0.134491 0 -0.707107 0 0.707107
0.8	0 0 0.134624 0 -0.707107 0 0.707107
0.9	0 0 0.134758 0 -0.707107 0 0.707107
1	0 0 0.134892 0 -0.707107 0 0.707107